protectzonetype,numerosity,type,key_resp.rt,key_resp.keys,blocks_rm.thisN,rotation_index,participant,sex,posis,age,reportedN,deviation,avg_ecc
tangential,5.0,far,0.4025093999998717,num_6,3.0,10.0,976325.0,male,"[(-154.8563850798539, 152.73506473629428), (-139.02207005882283, 178.09076338612942), (-180.6145460629544, 139.71612339652523), (-321.7335854398791, 343.6538956566621), (-295.95311779812215, 396.78349970043064)]",22.0,6,1.0,8.94094377235836
radial,4.0,far,0.9864325000016834,num_5,0.0,18.0,652172.0,male,"[(-51.41025562991085, -193.79753769350947), (-61.328962280555075, -164.8241498465711), (-53.410271416443074, -218.11361672286347), (-89.34765774939319, -344.50726269614887)]",24.0,5,1.0,6.530347973875516
tangential,6.0,both,1.0654261999989103,num_7,3.0,12.0,438116.0,male,"[(-418.1511484376758, 110.49034826740674), (-407.1173574170424, 174.71946563750384), (-461.04000169526546, 62.26268196572892), (-196.2977954190321, 61.39768329202515), (-203.73477100336996, 88.3014660991512), (-216.80073885413867, 26.274364540705154)]",40.0,7,1.0,9.040227700896875
radial,3.0,close,0.495737300003384,num_3,3.0,8.0,3473.0,female,"[(-46.580626498465556, 195.09163291902206), (-33.576334066975186, 176.05390784414828), (-46.48341707041439, 216.42851544716564)]",23.0,3,0.0,5.470615024653368
tangential,6.0,both,0.6811774000007063,num_6,0.0,16.0,457930.0,female,"[(-315.36962440920024, -320.319371877506), (-391.4442084209352, -290.6805533698992), (-284.8647489495063, -375.38947172793576), (-182.43354954612929, -184.5548698896889), (-224.52316611438957, -167.03774353731495), (-154.90634120834034, -215.57482962071154)]",22.0,6,0.0,10.069729636106782
radial,4.0,close,0.2274748999998337,num_3,1.0,3.0,375447.0,female,"[(344.0931742156677, 205.0131397208144), (268.2037762832445, 182.77816882793476), (404.6428781860838, 246.68423979653767), (170.0974346440504, 72.58242606239074)]",22.0,3,-1.0,9.4454245405524
tangential,6.0,both,0.9616483999998308,num_5,0.0,11.0,375447.0,female,"[(-386.60021577082966, 213.38878406783223), (-328.27226519650145, 253.62499066759617), (-448.015147718221, 141.09725650309773), (-205.56500799501976, 116.95096189432333), (-182.50124556799315, 155.29109718201045), (-218.40204328420813, 87.01593442633128)]",22.0,5,-1.0,9.269976907044372
radial,5.0,far,0.6229958999992959,num_5,0.0,15.0,438116.0,male,"[(-221.68936364800186, -117.02275866404786), (-185.5675166112449, -117.53463281709475), (-275.9269622402896, -145.96237411125065), (-381.77008875190745, -211.75480947161677), (-429.8066672886206, -262.61640112095523)]",40.0,5,0.0,9.406188316908935
tangential,4.0,close,0.9658183999999892,num_4,0.0,15.0,457930.0,female,"[(-301.389980237799, -184.9772413359522), (-330.7214490898985, -134.50669104514353), (-258.224695502454, -200.54099438328632), (-170.38429757860183, -130.4931856937211)]",22.0,4,0.0,8.546402176633983
radial,6.0,both,0.8950277000003553,num_4,1.0,10.0,976325.0,male,"[(-280.01428534987275, 256.6797615707168), (-215.14589101834918, 192.54442695537702), (-318.7922321522679, 294.34550075989245), (-156.27059864222701, 152.73506473629428), (-125.84518902149895, 115.78638544368093), (-176.55512586288296, 186.59994023211672)]",22.0,4,-2.0,7.957446443736995
radial,6.0,both,1.10048420000021,num_7,2.0,23.0,994697.0,female,"[(336.9066407361944, -175.46058083755693), (257.64913727899943, -130.2997806331277), (384.1118716931144, -201.8064199242178), (190.47655072689977, -107.08493649053901), (151.52483990650123, -79.26992837942151), (218.8347741817395, -134.54587237041144)]",19.0,7,1.0,7.957446443736995
tangential,3.0,far,0.6749260999999933,num_3,0.0,1.0,521631.0,female,"[(216.5, -7.5), (233.3771478249729, -31.423080861081132), (217.74713291676588, 34.44621601420184)]",25.0,3,0.0,6.120367701807394
radial,5.0,far,0.5154534999983298,num_6,3.0,4.0,894268.0,female,"[(161.92745289171938, 158.39191898578667), (131.45110345306432, 157.34273024653305), (194.56210329978595, 166.4839312234955), (266.57925650732847, 289.9137802864845), (232.13844841307142, 235.60151922641805)]",24.0,6,1.0,7.710649361797702
radial,4.0,close,0.5430046000001312,num_4,2.0,1.0,347891.0,male,"[(417.5, -7.5), (357.12493017260925, -28.07373606002732), (460.0740021000708, -30.804718974593463), (241.5, 1.5)]",26.0,4,0.0,10.090099261241184
radial,3.0,far,0.4271920999999565,num_3,0.0,16.0,976325.0,male,"[(-197.28279195104682, -195.1614716074871), (-159.4773145902668, -148.76987604285245), (-214.2922562034301, -224.12707607943724)]",22.0,3,0.0,7.331746851870797
radial,4.0,close,0.23463899999842397,num_5,2.0,5.0,442684.0,male,"[(168.52275866404787, 310.889980237799), (132.8791784430152, 251.4422628608372), (206.10741385748472, 337.9496940105362), (101.95096189432337, 179.58424588148657)]",33.0,5,1.0,8.465515226849137
radial,5.0,close,1.6407214000009844,num_7,3.0,19.0,186525.0,female,"[(1.4999999999999247, -409.5), (-21.896617072749574, -365.6305584502387), (-7.173921894333158, -478.48940371077344), (8.499999999999956, -240.5), (14.871391147221074, -186.14521257552718)]",19.0,7,2.0,9.182191413495646
radial,3.0,far,0.5723651000007521,num_2,3.0,15.0,347891.0,male,"[(-374.7341903670452, -231.94134295108998), (-325.45673954705916, -167.46800656924842), (-422.3252647440744, -289.0876729446603)]",26.0,2,-1.0,11.99847716111873
tangential,3.0,close,0.5477570000002743,num_3,3.0,11.0,148297.0,male,"[(-415.8130286919317, 226.79070785647892), (-369.7242438793531, 261.0977890046844), (-478.00253857387605, 128.13141765872317)]",34.0,3,0.0,12.932383326480817
radial,4.0,close,0.406278100000236,num_5,1.0,3.0,375447.0,female,"[(185.5124491117621, 107.68301270189221), (144.51821263230565, 87.76128845486248), (224.6657876425688, 131.50263141693108), (371.9722523149138, 225.05393264005255)]",22.0,5,1.0,7.361835280913038
tangential,5.0,far,0.6379926999998133,num_4,0.0,21.0,621343.0,female,"[(104.58493649053894, -186.14642370797765), (69.26191139207941, -196.91077074325125), (142.96753380725366, -169.7066057260145), (194.38878406783232, -353.691250427021), (154.1262222735857, -397.8459680575669)]",23.0,4,-1.0,8.050219095405835
radial,5.0,close,1.915048699999716,num_5,3.0,16.0,457930.0,female,"[(-303.348809129029, -325.2691193458119), (-251.63996622263045, -282.7045736115211), (-334.89407814120597, -399.887506360668), (-144.95689014324228, -144.24978336205567), (-166.7425363960166, -168.73351507768234)]",22.0,5,0.0,9.754653447425229
radial,4.0,close,0.21305729999994583,num_5,3.0,16.0,580416.0,male,"[(-243.2447327281724, -256.6797615707167), (-193.42947660624094, -208.4829134392186), (-286.55229113108993, -273.0898133881208), (-144.95689014324228, -147.07821048680188)]",31.0,5,1.0,8.465515226849138
radial,4.0,close,0.4338412999995853,num_4,3.0,13.0,457930.0,female,"[(-218.5, 1.5000000000000269), (-181.58362293302716, -7.985588302470478), (-257.9750398166857, 1.028634906109374), (-388.2735161526489, -2.4341314350848386)]",22.0,4,0.0,7.14251617410015
radial,4.0,far,0.7750071999980719,num_5,3.0,11.0,670368.0,male,"[(-191.40475395717536, 121.47724133595216), (-161.65542789484772, 87.86115526590521), (-215.98881521776724, 143.55309765658953), (-344.45919961945214, 206.3791651245988)]",24.0,5,1.0,7.313559374514013
radial,5.0,far,0.9569810999998936,num_4,1.0,1.0,558954.0,female,"[(226.5, 3.5), (172.55196811024007, 2.8434842274878065), (272.818322250522, 3.577552162537998), (378.5, 2.5), (436.18320598005454, 10.431767708585593)]",30.0,4,-1.0,8.11771179107148
radial,4.0,far,1.69119259999934,num_4,0.0,9.0,477225.0,female,"[(-142.709292143521, 224.17974470476847), (-128.65784552255514, 187.55847777780218), (-183.30385261293782, 270.0421173398653), (-245.40544456622757, 390.05469844273404)]",24.0,4,0.0,8.738761252004675
radial,6.0,both,0.6066195999999309,num_5,1.0,17.0,521631.0,female,"[(-227.20929214352125, -370.5380379443385), (-205.37052241729614, -330.18243056996295), (-272.34036790079824, -399.0123408902107), (-127.4150635094612, -215.68936364800183), (-118.94347710931544, -188.1478131369356), (-149.80507072878902, -237.97645935202473)]",25.0,5,-1.0,9.377066278446263
radial,4.0,far,0.2230571000000054,num_5,3.0,18.0,976325.0,male,"[(-78.59985860565193, -252.7697810798821), (-70.11872507075645, -198.65320371264386), (-89.16003467283808, -302.11828375464194), (-77.36866967127696, -389.2906872601887)]",22.0,5,1.0,8.10317039926132
radial,4.0,both,2.726473199998509,num_4,1.0,17.0,695779.0,female,"[(-180.48686027918575, -323.61241210213444), (-115.87916512459896, -187.7086015344687), (-214.9223586576958, -382.4631696354588), (-107.01069091750269, -148.05813323934927)]",24.0,4,0.0,8.275528868478665
